Folder: PunchingShearSlabs

File: data_Slab522.csv
Effective flexural depth of the slab,Shear span, Column width,Slab reinforcement ratio ,Yield strength of the slab flexural reinforcement ,Compressive strength of the slab concrete ,Punching Shearstrength
76.2,139.5,80.11,2,414,23.42,129
275,1150,200,1.49,550,111.72,2450
107,1450,100,1.06,304,24.32,216
88,800,200,1.2,480,19.8,199
122,889,254,1.56,331,28.62,440
82,689.5,173.57,1.26,373,8.66,152
77,815,200,1.63,500,25.73,194
456,2320,520,0.33,520,32.4,2153
102,583.5,203,1.7,282,18.34,330
121,838.5,228.5,0.75,422,28.02,315
165.1,814,152,0.75,419,42.71,600
113,735,164.93,0.83,420,21.95,280
99,720,160,1.43,416,25.84,260
275,1150,200,1.49,550,64.14,2050
63.2,381,102,0.89,376,19.57,78
108,990,300,0.51,749,51.52,251
98,611,117.81,1.27,550,57,341
200,1025,150,2.62,550,89.28,1450
127,736.5,40.06,0.75,305,24.89,166
106,505,109.96,0.67,350,11.54,187
79,815,200,0.75,480,20.55,165
127,584,279.6,0.75,305,24.89,243
117,583.5,203,1.2,432,19.95,339
83,433,157.87,0.93,500,13.28,307
108,990,360,0.51,749,61.64,426
63.2,394,76,0.89,376,20.72,83
75,75,200,1.5,480,26.4,338
106,990,240,0.52,749,49.68,358
46.5,270,100,1.96,530,28.95,97
124,583.5,203,1.7,432,39.33,431
99,532,98.17,0.8,701,21.45,194
124,889,254,1.54,331,28.1,464
172,312.5,137.44,0.58,500,34.2,668
125,675,150,0.64,490,64.6,365
275,1150,200,2.55,550,89.68,2400
82,423,173.57,0.89,559,15.9,245
60.5,356,152,1.89,376,18.23,136
120,675,150,2.36,490,76,645
109,487,177.5,1.31,541,39.6,362
53.5,270,100,1.96,530,26.1,126
120,710,250,0.84,430,34.96,365
80,835,160,1.31,525,29.32,262
75,75,200,0.75,480,33.45,284
64,410,62.83,0.98,480,31.2,117
76.2,292,80.11,2,414,21.48,136
114.3,763,254,1.53,399,20.96,356
118,665,133.52,0.8,628,30.15,280
210,1250,260,1.5,573,27.7,1024
119,705,235.62,2.29,448,27.68,540
125,705,235.62,0.53,462,24.52,258
83,558.5,80.11,1.75,531,37.99,139
51,381,152,1.67,352,11.11,113
40.5,270,100,0.42,530,31.5,36
80,835,160,1.31,525,26.55,248
119,583.5,203,1.5,282,27.74,335
114,583.5,203,1.1,432,31.16,377
100,500,200,1.09,507,19,202
174,685.5,706.07,1.16,576,22.89,1111
275,1150,200,1.49,550,83.49,2250
70,675,150,2.02,490,64.6,267
77,815,200,1.2,500,21.98,176
90,375,117.81,0.58,620,31.82,240
114,762,254,3.73,321,21.48,445
75,125,100,1.5,480,11.55,109
95,610,117.81,0.83,494,35.48,214
117,838.5,304.5,0.86,419,24.61,320
98,611,117.81,1.27,650,78.97,405
55,200,78.54,0.35,448,38.95,60
38.1,89,40.06,2.06,550,13.15,35
177,784.5,157.87,0.64,586,22.89,478
107,1275,450,1.06,304,28.24,301
107,1450,100,1.06,324,23.02,196
120,675,150,1.68,490,70.3,543
100,262.5,200,0.97,488,37.43,330
128,820,125.66,0.98,485,31.2,390
109,990,180,0.5,749,53.36,246
40.5,270,100,0.52,530,28.05,44
75,75,200,1.5,480,36.08,421
171,1150,235.62,1.18,515,25.75,626
150,395,200,0.9,465,37.43,583
80,650,235.62,2.02,403,15.62,239
79,815,200,1.15,480,26.4,165
118,711,356,1.17,332,24.82,400
107,505,109.96,0.66,350,11.54,183
92,750,200,1.48,352,19.48,220
260,1725,350,1.15,524,28.89,1046
118,780,118,0.84,454,24.15,275
46.5,270,100,1.29,530,27,90
76.2,508,80.11,2,414,22.93,129
86,375,117.81,1.79,589,33.34,313
114,762,254,2.49,321,27.05,400
114.3,763,254,2.3,399,21.48,364
95,610,117.81,0.83,494,21.75,197
117,780,117.81,0.85,441,26.18,255
98,611,117.81,1.27,550,40.88,297
102,611,117.81,1.03,650,31.57,227
108,990,120,0.51,749,54.28,322
40.5,270,100,1.16,530,27.82,71
197,1064,196.35,0.35,664,22.65,444
119,583.5,203,1.2,432,15.2,292
108,990,240,0.51,749,51.52,241
100,795,100,0.56,460,34.37,150
114.3,737.5,305,1.52,481,19.78,433
170,684,315.73,0.67,612,31.07,686
121,583.5,203,1.9,282,30.88,422
110,505,109.96,0.64,350,11.54,177
124.7,1120,200,0.54,438,33.53,282
60,450,100,1.95,382,37.05,170
190,1350,300,1.35,531,32.2,825
90,675,150,2.38,490,62.7,418
40.5,270,100,0.82,530,32.62,56
125,889,508,1.52,331,33.67,579
80,478,78.54,1.8,550,37.5,183
46.5,270,100,0.69,530,27,66
96,625,130,1.46,526,29.3,236
117,583.5,203,1.5,282,14.72,339
127,955.5,225,1.03,445,63.74,443
60,229.5,78.54,1.06,250,26.77,104
114,762,254,2.49,321,35.56,467
60.5,406.5,51,1.89,376,19.24,71
63.2,406.5,51,0.89,376,21.87,64
95,675,150,0.84,490,66.5,249
200,1075,196.35,1.19,596,87.02,1041
114,711,356,3.73,321,23.77,498
40.5,270,100,1.45,530,27.82,79
80.77,190.5,119.38,1.5,450,23.75,160
107,990,240,0.51,749,55.2,400
114.3,763,254,2.3,483,24.1,378
75,450,100,1.5,382,27.64,180
80.77,190.5,119.38,1.5,450,49.47,243
99,532,98.17,0.4,712,23.55,148
83,254,80.11,1.75,531,37.99,149
95,675,150,1.49,490,39.9,320
114.3,788.5,203,1.05,399,21.09,343
35,270,100,1.28,530,35.33,57
40.5,270,100,0.69,530,28.8,57
82,689.5,173.57,1.33,456,19.17,240
100,770,150,0.56,460,33.15,174
60.5,381,102,1.89,376,19.1,105
127,686,119.38,0.75,305,24.89,201
124,583.5,203,1,432,13.3,254
63.2,356,152,0.89,376,15.53,88
172,684,158.65,0.46,621,31.07,503
107,990,120,0.51,749,54.28,318
30,165.5,76,1.77,396,26.33,31
93,610,117.81,1.52,464,25.12,214
40.5,270,100,1.99,530,31.88,85
63.2,368.5,127,0.89,376,18.63,88
118,762,254,1.17,332,13.36,302
120,705,235.62,1.11,461,25.2,332
40.5,270,100,0.6,530,31.88,49
173,684.5,157.87,0.45,621,31.07,530
127,686,119.38,0.75,305,24.89,203
201,1075,196.35,0.61,633,103.36,960
82,423,173.57,1.21,559,16.05,201
124.7,1120,200,0.54,438,24.7,258
75,100,150,1.5,480,27,235
38.1,88.5,80.11,2.06,550,13.15,36
107,990,120,0.51,749,52.44,240
118,675,117.81,0.8,628,30.82,285
60,229.5,78.54,1.56,250,27.23,113
132.7,1120,200,0.5,438,31.54,257
100,611,117.81,1.25,650,30.82,244
80.77,190.5,119.38,1.5,450,13.78,108
114.3,763,254,3.45,399,22.63,334
200,1025,150,1.75,550,118.7,1400
100,500,200,2.26,471,70.97,489
114,762,254,3.73,321,32.81,547
121,857.5,304.5,0.79,422,24.8,314
117,583.5,203,1.5,282,31.16,411
95,600,300,1.49,490,67.45,560
200,1075,196.35,0.81,627,86.73,1021
90,335,180.64,0.58,620,31.82,265
109,990,360,0.5,749,57.96,446
82,474,93.46,0.74,456,8.88,117
124.7,1120,200,0.54,438,33.53,343
60,229.5,78.54,1.56,250,24.75,100
99,640,320,1.43,416,31.16,360
60,229.5,78.54,0.69,250,27.98,82
200,1247.5,196.35,0.98,530,32.7,825
124.7,1120,200,0.54,438,33.53,304
114.3,763,254,3.45,483,33.4,374
200,1025,150,2.62,550,80.1,1250
95.5,290,94.25,0.85,723,24,181
40.5,270,100,0.69,530,31.88,52
200,525,200,0.83,465,37.43,904
123,705,235.62,0.54,448,24.23,258
194,1075,196.35,0.83,620,81.42,889
100,611,117.81,1.25,650,35.25,294
124.7,1120,200,0.73,438,24.7,319
210,1250,260,0.33,555,29.3,550
118,763.46,254,1.15,332,27.6,356
118,763.46,254,1.15,332,19.3,356
121,711.48,355.74,0.5,294,24.9,236
114,762.66,254.22,1.1,399,22.1,389
114,762.66,254.22,1.1,483,23.3,393
114,762.66,254.22,2.6,483,33,374
114,788.88,203,1.1,393,21.1,343
114,758.1,264.48,1.1,328,24.8,372
127,889,254,1.54,331,28.1,463
127,889,508,1.52,331,33.2,579
75,474.75,50.25,1.17,384.4,32.6,140
75,450,99.75,1.17,384.4,30.7,200
75,425.25,150,1.17,384.4,30.5,204
75,399.75,200.25,1.17,384.4,30.9,240
75,450,99.75,0.47,384.4,29.1,118
75,450,99.75,1.55,384.4,31.9,210
75,450,99.75,1.86,384.4,31.2,223
75,450,99.75,1.18,347.1,32.3,170
75,450,99.75,0.92,384.4,28,169
75,699.75,99.75,1.17,384.4,29.2,189
75,950.25,99.75,1.17,384.4,34.1,160
120,450,99.6,1.17,384.4,29,301
170,600.1,299.2,0.79,343,39.6,660
170,600.1,299.2,1.19,473.6,35.4,750
170,600.1,299.2,1.09,384.4,39.3,635
120,600,300,3.37,384.4,36.7,400
120,600,300,2.11,384.4,39.2,540
120,600,300,1.12,384.4,40.8,600
120,699.6,99.6,0.99,343.2,17.9,190
120,699.6,99.6,0.99,343.2,42.8,312
79,815.28,199.87,0.8,480,28.9,186
125,475,250,0.96,298.2,26,427
95,475,249.85,1.32,289,27.5,307
93,500.34,199.95,1.24,325.5,29.5,274
93,500.34,199.95,1.32,325.5,21.2,249
93,500.34,199.95,0.58,325.5,19.2,170
176,684.64,202.4,0.45,621,31,537
109,887.26,224.54,0.96,445,34.6,301
109,887.26,224.54,0.96,445,55,443
190,999.4,400.9,0.81,572,21.9,615
90,624.6,250.2,2,466,26,316.8
168,900.48,199.92,0.5,490,30.2,586.6
168,900.48,199.92,0.5,490,28.3,522.3
98,475.3,249.9,1.57,458.4,32.2,356
158,475.58,249.64,0.97,458.4,34.3,646
98,475.3,249.9,1.57,458.4,31.4,360
100,475,250,0.79,413.5,40.2,293
99,475.2,250.47,1.14,371,44.7,354
210,1249.5,260.4,0.25,541,32,408
117,624.78,129.87,0.28,525,34.1,140
196,1250.48,260.68,0.82,552,57.5,989
206,1250.42,259.56,0.78,510,43.4,860
199,1249.72,260.69,0.81,510,38.9,839
162.5,789.75,250.25,0.52,435,31.2,479
162.5,789.75,250.25,0.65,435,50.7,675
157.5,790.65,250.43,1.13,433,51.4,811
137.5,790.62,250.25,2.48,433,56.4,788
105,1000,250,0.45,450,44.7,219
112.5,789.75,249.75,1.88,435,57.1,481
210,1249.5,260.4,1.5,709,33.5,974
267,1209.51,339.09,1.58,550,30.5,1625
150,1050,250.5,0.86,604,24.5,473
150,1050,250.5,0.86,604,39.4,723
150,750,250.5,0.86,604,26.4,678
150,750,250.5,0.86,604,34.8,691
200,1026,450,1.07,575,34.6,974
104.2,664.8,200.06,0.94,493,100.7,412.9
101.7,665.12,200.35,1.48,523,103.9,460.9
96,685.44,129.6,1.5,560,37.8,361.3
197,577.21,260.04,1.59,517,32.9,985
204,1650.36,259.08,1.54,517,32.2,961